Folder: hyperspy_tutorial/2018-04-05_tutorial/examples

Note: README.md
# 2020 CCEM Image Processing Workshop Tutorial:

This repository contains the files needed for the HyperSpy tutorial session 
presented at the virtual CCEM Image Processing Workshop on May 1, 2020.
The content is structured by topic, with [Jupyter](https://jupyter.org/)
Notebooks in each folder containing the workshop materials. We recommend
following along in the *non*-completed notebook file, and leaving the notebook
marked `_completed` as a reference (an "answer key") that contains the expected
outputs of each command.

For additional information, please visit the 
[website](https://pages.nist.gov/hyperspy_tutorial) set up for the
tutorial.

File: BN_(hex)_B_K_Giovanni_Bertoni_100.msa
#FORMAT      : EMSA/MAS Spectral Data File
#VERSION     : 1.0
#DATE        :
#TIME        :
#OWNER       :
#NPOINTS     : 1024
#NCOLUMNS    : 1
#DATATYPE    : Y
#SIGNALTYPE  : EELS
#XPERCHAN    : 0.5
#OFFSET      : 113.5
#XLABEL      :
#XUNITS      : eV
#COMMENT     : File created by HyperSpy version 1.4.dev
#TITLE       : Hexagonal Boron Nitride
#BEAMKV      : 100
#CONVANGLE   : 0.2
#COLLANGLE   : 2.55
#SPECTRUM    : Spectral Data Starts Here
2.09777e+07,
2.92674e+07,
2.72224e+07,
2.53214e+07,
2.35608e+07,
2.19268e+07,
2.03917e+07,
1.89929e+07,
1.77194e+07,
1.64965e+07,
1.53551e+07,
1.43543e+07,
1.33758e+07,
1.25075e+07,
1.16706e+07,
1.09473e+07,
1.02372e+07,
9.59463e+06,
8.99168e+06,
8.43274e+06,
7.926e+06,
7.45502e+06,
6.99305e+06,
6.57308e+06,
6.20537e+06,
5.83502e+06,
5.49897e+06,
5.19275e+06,
4.88712e+06,
4.61366e+06,
4.36646e+06,
4.13778e+06,
3.90496e+06,
3.70149e+06,
3.50417e+06,
3.33376e+06,
3.16571e+06,
3.00774e+06,
2.85493e+06,
2.76811e+06,
3.26746e+06,
4.02349e+06,
2.88664e+06,
3.7799e+06,
7.29286e+06,
6.03717e+06,
4.83617e+06,
5.25732e+06,
5.01159e+06,
4.61777e+06,
4.19583e+06,
4.2744e+06,
5.00811e+06,
4.85414e+06,
4.07521e+06,
3.79016e+06,
3.91461e+06,
4.08945e+06,
4.10369e+06,
4.0888e+06,
4.09773e+06,
4.07643e+06,
3.98371e+06,
3.89273e+06,
3.79382e+06,
3.67917e+06,
3.52649e+06,
3.3657e+06,
3.24014e+06,
3.15225e+06,
3.10087e+06,
3.05018e+06,
2.99063e+06,
2.9249e+06,
2.86529e+06,
2.82526e+06,
2.77729e+06,
2.73162e+06,
2.67437e+06,
2.6068e+06,
2.54604e+06,
2.46864e+06,
2.38351e+06,
2.30229e+06,
2.22096e+06,
2.14853e+06,
2.09332e+06,
2.05154e+06,
2.01307e+06,
1.97193e+06,
1.93092e+06,
1.88626e+06,
1.83755e+06,
1.79246e+06,
1.73998e+06,
1.68633e+06,
1.63843e+06,
1.59841e+06,
1.55079e+06,
1.51859e+06,
1.47652e+06,
1.43206e+06,
1.3968e+06,
1.35492e+06,
1.32407e+06,
1.27992e+06,
1.24458e+06,
1.20509e+06,
1.17065e+06,
1.13535e+06,
1.10824e+06,
1.07753e+06,
1.05356e+06,
1.02612e+06,
1.00111e+06,
970024,
943827,
919687,
898113,
871051,
846025,
829056,
804925,
787766,
762925,
741757,
724627,
704176,
688376,
676302,
659695,
647550,
629824,
613360,
601144,
588003,
575255,
556301,
547741,
532855,
524227,
513315,
503017,
497420,
516425,
692845,
689342,
778335,
1.07292e+06,
1.13646e+06,
961467,
1.00568e+06,
1.09347e+06,
1.02488e+06,
858796,
741177,
733596,
762136,
780062,
781466,
817071,
865035,
902873,
938279,
953166,
949807,
917443,
876195,
828910,
798241,
770084,
763007,
758889,
759449,
761394,
752417,
748652,
738942,
724408,
714986,
700284,
687372,
678422,
672554,
661139,
652207,
642024,
632748,
619292,
610440,
598339,
590565,
579613,
566633,
560423,
550450,
544410,
532010,
524905,
516806,
508559,
502759,
492923,
485072,
476222,
467302,
456645,
450499,
436783,
436076,
422601,
418521,
408318,
404169,
397093,
389771,
383160,
374452,
369953,
367677,
360315,
352758,
348710,
340112,
334835,
327498,
322827,
318187,
313369,
309413,
303063,
298718,
290697,
288460,
288932,
278257,
278312,
271194,
266712,
265443,
256937,
255194,
253652,
247705,
241108,
241823,
239577,
235133,
227288,
226551,
222970,
220607,
220301,
215939,
210370,
209102,
174132,
#ENDOFDATA   : End Of Data and File

File: BN_(hex)_LowLoss_Giovanni_Bertoni_96.msa
#FORMAT      : EMSA/MAS Spectral Data File
#VERSION     : 1.0
#DATE        :
#TIME        :
#OWNER       :
#NPOINTS     : 1024
#NCOLUMNS    : 1
#DATATYPE    : Y
#SIGNALTYPE  : EELS
#XPERCHAN    : 0.5
#OFFSET      : -61.49999
#XLABEL      :
#XUNITS      : eV
#COMMENT     : File created by HyperSpy version 1.4.dev
#TITLE       : Hexagonal Boron Nitride
#BEAMKV      : 300.0
#CONVANGLE   : 0.2
#COLLANGLE   : 2.55
#SPECTRUM    : Spectral Data Starts Here
-27.8947,
-31.7544,
4.035088,
-11.0526,
30,
2.631579,
1.052632,
11.4035,
-2.982456,
5.789474,
-16.3158,
-1.754386,
46.3158,
39.2983,
-16.6667,
-4.210526,
-11.4035,
4.385965,
-11.579,
-9.649123,
-13.6842,
3.684211,
11.9298,
-1.228070,
40.3509,
46.8421,
17.0175,
143.509,
263.509,
2545.09,
36136.5,
181442,
17106.3,
3935.09,
4762.28,
7099.65,
4097.72,
2780.88,
3366.49,
5065.44,
8193.51,
11272.5,
15997.2,
21116.7,
21878.4,
17541.6,
13165.8,
9970.18,
8445.26,
7620.35,
7048.07,
5998.95,
5286.14,
5278.42,
5657.37,
5949.82,
6059.82,
5884.91,
5556.32,
5028.42,
4458.25,
4034.91,
3693.16,
3390.53,
3100.35,
2777.54,
2524.39,
2461.58,
2254.39,
2130.53,
2060,
1898.6,
1734.39,
1608.6,
1568.77,
1361.05,
1256.49,
1196.32,
1111.75,
1109.65,
928.07,
885.965,
789.649,
786.842,
719.825,
672.632,
633.333,
584.737,
541.228,
501.754,
456.842,
431.228,
376.842,
392.983,
369.649,
336.14,
293.333,
277.719,
264.035,
257.193,
273.333,
161.228,
158.07,
199.825,
164.561,
162.982,
159.123,
141.754,
100.702,
154.737,
87.5439,
114.035,
144.21,
104.21,
146.14,
88.421,
84.0351,
106.842,
107.017,
73.3333,
92.2807,
94.9123,
91.2281,
70,
60.8772,
51.5789,
117.193,
55.9649,
96.1403,
120,
145.79,
153.158,
123.158,
142.281,
74.0351,
101.93,
106.316,
94.9123,
77.7193,
117.368,
55.0877,
95.0877,
76.1403,
88.9474,
83.6842,
67.5439,
90.7018,
74.0351,
90,
80.7018,
55.0877,
110,
82.9825,
40.5263,
52.6316,
87.0175,
64.2105,
85.2632,
39.1228,
73.3333,
54.386,
70,
74.386,
49.2983,
58.2456,
75.2632,
44.5614,
22.2807,
87.3684,
21.5789,
35.4386,
16.4912,
33.1579,
65.9649,
46.3158,
55.2632,
21.9298,
41.7544,
15.2632,
39.2983,
88.421,
54.2105,
-14.7368,
22.6316,
23.5088,
41.0526,
48.9474,
37.5439,
18.2456,
20,
34.5614,
-1.403509,
21.5789,
7.192983,
20.3509,
46.1403,
-11.9298,
-13.8597,
7.368421,
16.8421,
11.7544,
11.579,
-30.5263,
41.5789,
7.017544,
-13.1579,
20.1754,
17.193,
8.596491,
7.017544,
34.9123,
18.2456,
13.1579,
33.3333,
27.7193,
11.2281,
70,
8.596491,
51.4035,
9.824561,
9.298246,
30.3509,
24.5614,
5.614035,
15.2632,
16.1404,
42.4561,
-4.736842,
32.807,
15.7895,
38.7719,
-1.228070,
-11.9298,
22.4561,
20.1754,
36.8421,
14.2105,
47.5439,
59.2983,
48.9474,
46.8421,
3.508772,
30.5263,
17.3684,
-4.210526,
38.7719,
25.614,
-2.807018,
-0.350877,
6.140351,
36.3158,
17.5439,
5.964912,
-7.543860,
6.140351,
38.0702,
45.0877,
#ENDOFDATA   : End Of Data and File